File: TGA/TPS-NPTiO2.txt
[TA Ascii File]
DTG-60

File Name :	C:\TAData\Caro Iacovone\TPS-NPTiO2.txt

[File Information]
File Name:	TPS-NPTiO2.tad
Sample Name:	TPS-NPTiO2
Lot No:	001
Acquire Date:	22/03/22
Acquire Time:	15:33:16(-0300)
Detector Type:	DTG-60
Detector Serial No:	C30564800519TK
Operator:	Carolina Iacovone
Atmosphere:	Nitrogen
Gas Flow:	30[ml/min]
Annotation:
Pan Name:	Aluminum
Sample Weight:	7.620[mg]
Molecular Weight:	0.00

[Measurements Program]
[Temperature Program]
Start Temp.
Temp. Rate	Hold Temp.	Hold Time	Gas
[ C/min  ]	[   C  ]	[ min  ]
3.00	30.0	10
10.00	450.0	0

[Data]
Time	Temp	DTA	TGA
sec	C	uV	mg
0.000000	28.7872	-2.219669	7.620259
3.000000	28.7714	-2.217545	7.618968
6.000000	28.8064	-2.214151	7.621152
9.000000	28.8498	-2.219928	7.623735
12	28.9313	-2.257513	7.624132
15	29.0098	-2.343758	7.624530
18	29.1058	-2.457658	7.623835
21	29.1911	-2.574268	7.620657
24	29.251	-2.673929	7.615693
27	29.292	-2.757258	7.613409
30	29.334	-2.819622	7.612813
33	29.38	-2.863854	7.611820
36	29.4221	-2.887415	7.609834
39	29.4496	-2.899405	7.609735
42	29.5038	-2.903357	7.614104
45	29.5552	-2.891126	7.617481
48	29.5909	-2.878852	7.614899
51	29.6102	-2.858747	7.609636
54	29.6356	-2.843002	7.607551
57	29.6616	-2.824579	7.609040
60	29.6768	-2.802413	7.610133
63	29.7007	-2.776754	7.610332
66	29.7371	-2.752164	7.610928
69	29.7821	-2.724576	7.609636
72	29.8022	-2.698530	7.607452
75	29.8112	-2.668644	7.609240
78	29.8104	-2.645245	7.612914
81	29.8291	-2.619018	7.614204
84	29.8386	-2.590524	7.611623
87	29.8491	-2.561382	7.610233
90	29.8725	-2.535877	7.610631
93	29.9116	-2.510483	7.610631
96	29.9247	-2.487049	7.611325
99	29.9273	-2.461401	7.611027
102	29.9265	-2.434932	7.609041
105	29.9328	-2.414955	7.610431
108	29.935	-2.392234	7.613014
111	29.9463	-2.373205	7.611325
114	29.9646	-2.350561	7.608743
117	29.9886	-2.328236	7.607056
120	29.997	-2.307830	7.606956
123	30.0022	-2.284962	7.606162
126	29.9941	-2.262987	7.605764
129	29.9903	-2.246890	7.607751
132	29.9937	-2.230033	7.610134
135	29.9973	-2.213562	7.611325
138	30.0114	-2.193814	7.610332
141	30.0374	-2.171521	7.605864
144	30.047	-2.156540	7.600998
147	30.0418	-2.140219	7.601593
150	30.0339	-2.124808	7.605268
153	30.0255	-2.109171	7.607354
156	30.0286	-2.093521	7.607453
159	30.0253	-2.080504	7.604970
162	30.0451	-2.066974	7.602984
165	30.0706	-2.048546	7.603282
168	30.0625	-2.030595	7.602587
171	30.065	-2.018570	7.600204
174	30.0486	-2.008170	7.600601
177	30.0494	-1.993399	7.603878
180	30.0428	-1.980052	7.604474
183	30.0442	-1.970617	7.601495
186	30.0565	-1.962552	7.599707
189	30.0723	-1.951880	7.601097
192	30.0745	-1.939990	7.602488
195	30.0833	-1.932511	7.602686
198	30.0575	-1.919738	7.604374
201	30.0549	-1.908219	7.606658
204	30.0448	-1.894186	7.607651
207	30.05	-1.889422	7.608346
210	30.0621	-1.881737	7.608148
213	30.0737	-1.873796	7.607850
216	30.0776	-1.858779	7.606658
219	30.0651	-1.847425	7.602090
222	30.0633	-1.841427	7.599112
225	30.0546	-1.835374	7.601395
228	30.0484	-1.823677	7.604871
231	30.0443	-1.814475	7.606063
234	30.0593	-1.808909	7.606261
237	30.0775	-1.809183	7.606857
240	30.0829	-1.803172	7.607453
243	30.0737	-1.794775	7.607651
246	30.0604	-1.787678	7.607354
249	30.047	-1.781291	7.607155
252	30.0467	-1.773517	7.606658
255	30.0416	-1.762351	7.605069
258	30.0493	-1.755434	7.604374
261	30.0674	-1.750891	7.605069
264	30.0714	-1.745266	7.605069
267	30.0611	-1.737766	7.603381
270	30.0502	-1.729885	7.601991
273	30.046	-1.724617	7.602885
276	30.0349	-1.718541	7.603878
279	30.0285	-1.715082	7.602289
282	30.0452	-1.708219	7.596827
285	30.0531	-1.702182	7.592259
288	30.06	-1.694832	7.592557
291	30.0588	-1.686916	7.592259
294	30.0498	-1.681005	7.591365
297	30.0334	-1.679653	7.594941
300	30.0282	-1.678700	7.598714
303	30.0189	-1.676336	7.600104
306	30.0316	-1.669540	7.600502
309	30.0472	-1.664856	7.599310
312	30.0544	-1.659784	7.598615
315	30.0485	-1.656808	7.599310
318	30.0364	-1.652362	7.600104
321	30.0208	-1.645255	7.600898
324	30.024	-1.642796	7.601395
327	30.0064	-1.637516	7.601593
330	30.0254	-1.634527	7.601495
333	30.0326	-1.631587	7.598019
336	30.0437	-1.622219	7.590670
339	30.0352	-1.616964	7.586797
342	30.0265	-1.612915	7.590373
345	30.0127	-1.609302	7.595337
348	30.0037	-1.605844	7.597224
351	30.0033	-1.602165	7.597125
354	30.0259	-1.599443	7.593748
357	30.0267	-1.594070	7.589777
360	30.0322	-1.589362	7.589876
363	30.018	-1.586291	7.591862
366	30.0171	-1.587253	7.592954
369	30.009	-1.586237	7.593947
372	29.9973	-1.582700	7.594841
375	29.993	-1.583564	7.594742
378	30.0011	-1.584634	7.594940
381	30.0246	-1.583669	7.594940
384	30.029	-1.574063	7.594047
387	30.0166	-1.567617	7.591564
390	30.0046	-1.564081	7.589578
393	30.0022	-1.556963	7.588287
396	29.9895	-1.557201	7.584116
399	29.9833	-1.554468	7.579151
402	29.9932	-1.551985	7.579647
405	30.0123	-1.547152	7.585704
408	30.0174	-1.540277	7.591166
411	30.0094	-1.534302	7.592557
414	29.9921	-1.532683	7.590968
417	29.9886	-1.530104	7.586896
420	29.9823	-1.525438	7.585407
423	29.9772	-1.521503	7.588386
426	29.9842	-1.521056	7.592854
429	30.0044	-1.519693	7.594642
432	30.0137	-1.516415	7.594046
435	30.0002	-1.509541	7.593649
438	29.9843	-1.509807	7.593550
441	29.9815	-1.509467	7.593451
444	29.9765	-1.506574	7.592556
447	29.9683	-1.503223	7.592060
450	29.977	-1.500069	7.591763
453	29.9995	-1.499645	7.587690
456	30.0076	-1.494694	7.580839
459	30.0003	-1.491081	7.575377
462	29.9814	-1.489009	7.572398
465	29.9751	-1.486949	7.575377
468	29.9707	-1.485789	7.582427
471	29.966	-1.482063	7.587095
474	29.9707	-1.476104	7.588684
477	29.9841	-1.473861	7.589776
480	30.002	-1.468201	7.590571
483	30.003	-1.465080	7.590074
486	29.9787	-1.457504	7.586003
489	29.9669	-1.454336	7.583322
492	29.9588	-1.452800	7.585208
495	29.961	-1.447390	7.587393
498	29.9657	-1.442450	7.586598
501	29.9818	-1.439332	7.581634
504	29.9961	-1.439045	7.576171
507	29.9822	-1.438355	7.578257
510	29.977	-1.435777	7.582924
513	29.9662	-1.431562	7.584513
516	29.959	-1.426295	7.586002
519	29.9527	-1.422151	7.586896
522	29.9649	-1.417415	7.586400
525	29.9777	-1.418307	7.582527
528	29.9873	-1.415962	7.578356
531	29.9805	-1.416538	7.580243
534	29.9735	-1.414526	7.585307
537	29.9582	-1.411009	7.587293
540	29.951	-1.409390	7.586896
543	29.9458	-1.408752	7.586300
546	29.9589	-1.408473	7.585407
549	29.9746	-1.405329	7.585109
552	29.9788	-1.397248	7.585109
555	29.9699	-1.395586	7.581831
558	29.9637	-1.392068	7.577263
561	29.9577	-1.388931	7.574980
564	29.9427	-1.383526	7.576072
567	29.9413	-1.381521	7.580044
570	29.945	-1.379616	7.581136
573	29.9653	-1.376627	7.576370
576	29.9711	-1.367176	7.573987
579	29.9686	-1.363105	7.574682
582	29.9634	-1.365526	7.576072
585	29.9468	-1.366788	7.577760
588	29.9425	-1.363753	7.579548
591	29.9339	-1.362859	7.581236
594	29.944	-1.360198	7.582229
597	29.9606	-1.358858	7.582726
600	29.9666	-1.352079	7.581633
603	29.9594	-1.344901	7.578059
606	29.9488	-1.343669	7.575675
609	29.9466	-1.340283	7.576469
612	29.9735	-1.337426	7.577165
615	30.0083	-1.336303	7.575079
618	30.0962	-1.366605	7.573888
621	30.2123	-1.435866	7.575378
624	30.3593	-1.535468	7.576868
627	30.5017	-1.672982	7.577960
630	30.6658	-1.841217	7.578061
633	30.8458	-2.032523	7.575181
636	31.0464	-2.238113	7.572898
639	31.2679	-2.453881	7.573792
642	31.535	-2.674554	7.573298
645	31.7973	-2.907577	7.572999
648	32.0899	-3.137208	7.574887
651	32.3675	-3.365637	7.576577
654	32.672	-3.591061	7.577373
657	32.9781	-3.810556	7.577671
660	33.3026	-4.027689	7.577076
663	33.6376	-4.239409	7.576780
666	33.9922	-4.444235	7.577575
669	34.3744	-4.645860	7.578271
672	34.758	-4.838746	7.576486
675	35.1378	-5.023181	7.570926
678	35.5136	-5.197966	7.564273
681	35.9074	-5.367767	7.561991
684	36.3104	-5.533446	7.565269
687	36.7179	-5.689341	7.569342
690	37.1523	-5.841599	7.570535
693	37.5937	-5.984348	7.568451
696	38.0416	-6.122551	7.564183
699	38.4823	-6.256471	7.563290
702	38.9198	-6.381913	7.565973
705	39.3705	-6.498560	7.568556
708	39.8208	-6.615735	7.570246
711	40.2697	-6.732045	7.571340
714	40.7318	-6.846456	7.571639
717	41.2151	-6.953720	7.568364
720	41.6903	-7.056021	7.564592
723	42.1619	-7.156995	7.563997
726	42.6222	-7.260585	7.562807
729	43.0977	-7.360340	7.559929
732	43.5677	-7.458907	7.560228
735	44.0391	-7.558584	7.561620
738	44.5294	-7.656153	7.560828
741	45.0451	-7.754848	7.559935
744	45.5393	-7.846828	7.558249
747	46.0407	-7.946125	7.556562
750	46.5209	-8.051815	7.557159
753	47.0162	-8.157216	7.557161
756	47.5145	-8.263917	7.556568
759	48.009	-8.373970	7.557662
762	48.5171	-8.487801	7.559947
765	49.036	-8.602508	7.561141
768	49.5623	-8.714426	7.561241
771	50.0755	-8.837887	7.560945
774	50.5595	-8.976307	7.560749
777	51.0533	-9.118401	7.560253
780	51.549	-9.245457	7.559560
783	52.05	-9.365821	7.557575
786	52.5582	-9.477942	7.554896
789	53.0776	-9.585426	7.550826
792	53.6084	-9.689138	7.547253
795	54.1135	-9.789240	7.545169
798	54.6215	-9.894501	7.543681
801	55.1212	-10.0025	7.545172
804	55.6282	-10.1097	7.545770
807	56.1304	-10.2168	7.543190
810	56.6471	-10.3258	7.541503
813	57.1757	-10.4399	7.540512
816	57.7137	-10.5517	7.538627
819	58.2315	-10.6639	7.537040
822	58.736	-10.7754	7.534360
825	59.2406	-10.8881	7.532673
828	59.7597	-11.0013	7.530391
831	60.2698	-11.1153	7.525328
834	60.7816	-11.2292	7.520960
837	61.3015	-11.3457	7.522948
840	61.8336	-11.4583	7.527518
843	62.3454	-11.5705	7.529705
846	62.8502	-11.6769	7.530402
849	63.3488	-11.7873	7.530303
852	63.8543	-11.8961	7.526929
855	64.3638	-12.0061	7.519681
858	64.8789	-12.11	7.514718
861	65.4024	-12.2143	7.515117
864	65.9388	-12.3156	7.516509
867	66.4611	-12.4143	7.514028
870	66.9751	-12.5157	7.511149
873	67.4702	-12.6175	7.507974
876	67.9841	-12.7256	7.506187
879	68.5	-12.8324	7.507083
882	69.0159	-12.9348	7.507085
885	69.5399	-13.0389	7.505497
888	70.0706	-13.1419	7.502620
891	70.5906	-13.2391	7.498749
894	71.0887	-13.338	7.497161
897	71.5887	-13.4348	7.496170
900	72.1009	-13.536	7.491505
903	72.5972	-13.6351	7.488626
906	73.1067	-13.7325	7.488727
909	73.6248	-13.8258	7.487239
912	74.1553	-13.9248	7.486546
915	74.6744	-14.0198	7.487243
918	75.183	-14.115	7.486450
921	75.6853	-14.21	7.482678
924	76.1785	-14.3062	7.475530
927	76.6965	-14.4027	7.470467
930	77.2124	-14.4964	7.469972
933	77.7354	-14.5895	7.470470
936	78.2602	-14.675	7.470174
939	78.7831	-14.7582	7.469282
942	79.2948	-14.8386	7.467000
945	79.8024	-14.9147	7.464618
948	80.2978	-14.9915	7.461342
951	80.8002	-15.0671	7.456379
954	81.3109	-15.1422	7.450223
957	81.8308	-15.2122	7.446651
960	82.3484	-15.2763	7.446156
963	82.8577	-15.3387	7.445561
966	83.3673	-15.4	7.442684
969	83.8706	-15.4621	7.436131
972	84.3633	-15.5266	7.431068
975	84.8698	-15.5872	7.429679
978	85.3795	-15.6476	7.426404
981	85.8993	-15.6997	7.422930
984	86.4258	-15.7488	7.424222
987	86.9417	-15.7886	7.425813
990	87.4528	-15.8301	7.423729
993	87.9558	-15.8711	7.420653
996	88.4544	-15.9085	7.417278
999	88.973	-15.9389	7.414102
1002	89.4713	-15.9672	7.410727
1005	89.9988	-15.9964	7.404274
1008	90.5153	-16.0219	7.397225
1011	91.0314	-16.0343	7.393851
1014	91.5343	-16.0457	7.393355
1017	92.037	-16.0558	7.392464
1020	92.5335	-16.0623	7.390578
1023	93.0372	-16.0651	7.387700
1026	93.5377	-16.0635	7.382538
1029	94.0681	-16.0633	7.374397
1032	94.5848	-16.057	7.365362
1035	95.1031	-16.0449	7.358413
1038	95.6052	-16.0213	7.357719
1041	96.115	-16.002	7.359508
1044	96.6164	-15.9779	7.357325
1047	97.1256	-15.9495	7.354844
1050	97.633	-15.9137	7.355243
1053	98.1554	-15.8748	7.354549
1056	98.6881	-15.8337	7.352764
1059	99.2067	-15.783	7.350680
1062	99.7211	-15.7273	7.348497
1065	100.217	-15.6675	7.345619
1068	100.721	-15.6064	7.341251
1071	101.219	-15.541	7.334103
1074	101.724	-15.4708	7.327649
1077	102.241	-15.3944	7.327552
1080	102.766	-15.3178	7.328745
1083	103.28	-15.2339	7.325966
1086	103.785	-15.1468	7.318520
1089	104.278	-15.0517	7.308194
1092	104.781	-14.9535	7.303826
1095	105.29	-14.8504	7.302735
1098	105.797	-14.7457	7.299758
1101	106.305	-14.6359	7.297873
1104	106.838	-14.5189	7.296286
1107	107.358	-14.4018	7.290329
1110	107.868	-14.2802	7.284770
1113	108.369	-14.1581	7.282984
1116	108.877	-14.0332	7.282787
1119	109.385	-13.9086	7.282094
1122	109.887	-13.7783	7.279315
1125	110.401	-13.6423	7.274054
1128	110.933	-13.5007	7.269686
1131	111.44	-13.3521	7.267404
1134	111.946	-13.2045	7.265915
1137	112.435	-13.0553	7.263534
1140	112.941	-12.8977	7.260258
1143	113.443	-12.7383	7.257082
1146	113.949	-12.5765	7.254005
1149	114.461	-12.4128	7.250731
1152	114.98	-12.2424	7.247852
1155	115.506	-12.0652	7.244874
1158	116.019	-11.8863	7.241102
1161	116.516	-11.6974	7.236934
1164	117.018	-11.5006	7.232169
1167	117.527	-11.2934	7.228198
1170	118.032	-11.0889	7.226015
1173	118.555	-10.8746	7.223633
1176	119.081	-10.6592	7.220854
1179	119.611	-10.4377	7.217579
1182	120.114	-10.2182	7.211027
1185	120.62	-9.995000	7.202985
1188	121.12	-9.769975	7.199610
1191	121.627	-9.542208	7.197526
1194	122.126	-9.309550	7.191570
1197	122.643	-9.076623	7.187897
1200	123.165	-8.841584	7.187899
1203	123.689	-8.599163	7.187801
1206	124.199	-8.359925	7.186710
1209	124.698	-8.118462	7.184527
1212	125.202	-7.873096	7.181649
1215	125.718	-7.623999	7.178771
1218	126.222	-7.372931	7.175794
1221	126.737	-7.127472	7.172221
1224	127.264	-6.880549	7.169144
1227	127.803	-6.630809	7.166464
1230	128.306	-6.378308	7.163189
1233	128.815	-6.128153	7.159516
1236	129.317	-5.881166	7.155844
1239	129.834	-5.631604	7.152072
1242	130.339	-5.384534	7.148697
1245	130.85	-5.141868	7.145223
1248	131.368	-4.905857	7.142146
1251	131.894	-4.666586	7.139566
1254	132.412	-4.425749	7.136887
1257	132.918	-4.186574	7.132320
1260	133.411	-3.953157	7.124477
1263	133.918	-3.723618	7.115342
1266	134.424	-3.486505	7.111868
1269	134.938	-3.252595	7.110877
1272	135.463	-3.020354	7.106807
1275	135.987	-2.785855	7.103035
1278	136.505	-2.552175	7.099363
1281	137.004	-2.317994	7.095789
1284	137.512	-2.088794	7.093408
1287	138.019	-1.861274	7.091820
1290	138.534	-1.630381	7.093014
1293	139.048	-1.399898	7.093611
1296	139.573	-1.170491	7.092322
1299	140.092	-0.945912	7.089941
1302	140.608	-0.720086	7.087162
1305	141.112	-0.494333	7.084283
1308	141.605	-0.271746	7.081405
1311	142.107	-0.053529	7.078527
1314	142.619	0.170054	7.075450
1317	143.135	0.396024	7.071778
1320	143.655	0.624866	7.068304
1323	144.173	0.857120	7.065624
1326	144.688	1.085567	7.063541
1329	145.192	1.318588	7.061059
1332	145.698	1.561019	7.057487
1335	146.198	1.807272	7.051033
1338	146.712	2.057887	7.043190
1341	147.226	2.297032	7.038822
1344	147.754	2.527966	7.037632
1347	148.278	2.758821	7.036939
1350	148.79	2.981812	7.036444
1353	149.304	3.200477	7.035452
1356	149.819	3.412278	7.032872
1359	150.31	3.624040	7.029994
1362	150.811	3.830189	7.027910
1365	151.322	4.031837	7.025727
1368	151.85	4.232587	7.023147
1371	152.373	4.433801	7.019872
1374	152.882	4.631233	7.017590
1377	153.389	4.825099	7.016002
1380	153.889	5.018869	7.013521
1383	154.396	5.210914	7.010445
1386	154.91	5.401912	7.006971
1389	155.409	5.588778	7.004589
1392	155.933	5.774414	7.002406
1395	156.458	5.962144	6.998634
1398	156.97	6.143894	6.994862
1401	157.476	6.324075	6.992481
1404	157.983	6.501416	6.990496
1407	158.491	6.676374	6.987916
1410	158.993	6.853872	6.984541
1413	159.506	7.026128	6.981464
1416	160.029	7.195619	6.978983
1419	160.549	7.363749	6.976502
1422	161.057	7.532214	6.974915
1425	161.561	7.697328	6.973427
1428	162.062	7.858496	6.970748
1431	162.566	8.016662	6.968069
1434	163.069	8.174595	6.965388
1437	163.573	8.334050	6.962709
1440	164.094	8.494051	6.960625
1443	164.621	8.656510	6.958740
1446	165.133	8.822983	6.956060
1449	165.632	8.986076	6.953382
1452	166.132	9.145018	6.950701
1455	166.638	9.297117	6.948817
1458	167.137	9.446529	6.947626
1461	167.646	9.595467	6.945543
1464	168.16	9.738897	6.942069
1467	168.688	9.878673	6.938694
1470	169.201	10.0171	6.935816
1473	169.703	10.1525	6.933236
1476	170.201	10.2876	6.930854
1479	170.699	10.416	6.928969
1482	171.199	10.543	6.927282
1485	171.705	10.6683	6.925099
1488	172.209	10.7957	6.922519
1491	172.736	10.9182	6.920137
1494	173.246	11.0401	6.918550
1497	173.754	11.1638	6.917162
1500	174.245	11.2886	6.915475
1503	174.749	11.412	6.914186
1506	175.25	11.5333	6.912301
1509	175.755	11.6573	6.909720
1512	176.273	11.7797	6.907239
1515	176.804	11.8994	6.904957
1518	177.315	12.0177	6.902675
1521	177.822	12.1356	6.900293
1524	178.319	12.255	6.896819
1527	178.825	12.3683	6.893643
1530	179.333	12.4803	6.891758
1533	179.832	12.5879	6.889972
1536	180.344	12.6939	6.887789
1539	180.861	12.7986	6.886301
1542	181.38	12.9005	6.884515
1545	181.883	12.995	6.882233
1548	182.384	13.086	6.880249
1551	182.887	13.1789	6.878165
1554	183.39	13.2705	6.875982
1557	183.89	13.3577	6.874395
1560	184.402	13.4416	6.873403
1563	184.928	13.5222	6.871816
1566	185.443	13.6079	6.869335
1569	185.948	13.6872	6.866557
1572	186.447	13.7678	6.863976
1575	186.949	13.8483	6.861793
1578	187.454	13.9248	6.859511
1581	187.954	13.9982	6.857625
1584	188.465	14.0668	6.855741
1587	188.982	14.1356	6.853557
1590	189.505	14.2063	6.851673
1593	190.01	14.2707	6.849490
1596	190.502	14.3319	6.846810
1599	190.997	14.388	6.844031
1602	191.498	14.4434	6.841748
1605	191.995	14.5004	6.840459
1608	192.504	14.551	6.839170
1611	193.019	14.6004	6.837384
1614	193.547	14.6489	6.835400
1617	194.042	14.6954	6.833515
1620	194.543	14.7366	6.831232
1623	195.035	14.7726	6.828255
1626	195.542	14.8105	6.825178
1629	196.044	14.8493	6.822697
1632	196.55	14.885	6.820415
1635	197.067	14.9162	6.817934
1638	197.586	14.948	6.815254
1641	198.099	14.9783	6.812574
1644	198.599	15.0088	6.809895
1647	199.091	15.0356	6.807415
1650	199.591	15.0584	6.805131
1653	200.091	15.0863	6.802353
1656	200.599	15.1097	6.799376
1659	201.11	15.1345	6.796597
1662	201.627	15.1594	6.793619
1665	202.136	15.1841	6.790741
1668	202.632	15.209	6.787962
1671	203.13	15.2329	6.784786
1674	203.627	15.2518	6.781510
1677	204.132	15.2722	6.778831
1680	204.635	15.2939	6.776548
1683	205.149	15.318	6.773769
1686	205.662	15.3394	6.770792
1689	206.174	15.3603	6.767715
1692	206.675	15.3807	6.764142
1695	207.168	15.4002	6.760767
1698	207.664	15.418	6.758584
1701	208.175	15.4323	6.756500
1704	208.681	15.445	6.754119
1707	209.195	15.4548	6.750844
1710	209.704	15.467	6.747171
1713	210.22	15.4776	6.743796
1716	210.713	15.4893	6.740124
1719	211.208	15.4997	6.737245
1722	211.7	15.508	6.734467
1725	212.202	15.5171	6.731191
1728	212.706	15.5225	6.728015
1731	213.218	15.5273	6.725137
1734	213.734	15.5364	6.721763
1737	214.24	15.5428	6.718288
1740	214.738	15.5441	6.715609
1743	215.24	15.5471	6.713127
1746	215.728	15.5535	6.709852
1749	216.227	15.5616	6.705882
1752	216.725	15.5649	6.702507
1755	217.245	15.5682	6.699629
1758	217.762	15.5725	6.696552
1761	218.268	15.5827	6.693078
1764	218.773	15.5908	6.689604
1767	219.265	15.5999	6.685633
1770	219.763	15.6112	6.680273
1773	220.27	15.6234	6.675309
1776	220.762	15.6374	6.671438
1779	221.273	15.6501	6.668063
1782	221.787	15.6708	6.664986
1785	222.296	15.6866	6.661016
1788	222.799	15.7062	6.656946
1791	223.294	15.7192	6.653869
1794	223.789	15.7306	6.650196
1797	224.285	15.745	6.645928
1800	224.79	15.7615	6.642354
1803	225.299	15.7769	6.638782
1806	225.818	15.7881	6.634314
1809	226.327	15.8002	6.629152
1812	226.834	15.8113	6.624188
1815	227.325	15.8219	6.620417
1818	227.826	15.8318	6.617042
1821	228.326	15.8401	6.613071
1824	228.824	15.8457	6.608704
1827	229.332	15.8522	6.603939
1830	229.852	15.8532	6.599273
1833	230.365	15.856	6.595005
1836	230.866	15.8518	6.591530
1839	231.355	15.8453	6.587759
1842	231.856	15.8335	6.582596
1845	232.349	15.816	6.577732
1848	232.844	15.7932	6.573761
1851	233.354	15.7625	6.569592
1854	233.864	15.7264	6.564331
1857	234.375	15.6832	6.558672
1860	234.873	15.6345	6.553510
1863	235.373	15.5771	6.548844
1866	235.863	15.5119	6.543781
1869	236.357	15.4387	6.538519
1872	236.858	15.361	6.533755
1875	237.36	15.2803	6.529486
1878	237.874	15.2045	6.525615
1881	238.388	15.1331	6.520751
1884	238.895	15.0603	6.514894
1887	239.393	14.9797	6.509136
1890	239.886	14.8938	6.503477
1893	240.376	14.7992	6.497222
1896	240.868	14.6924	6.490471
1899	241.371	14.5764	6.483819
1902	241.887	14.4486	6.476869
1905	242.391	14.3202	6.469920
1908	242.891	14.1868	6.463367
1911	243.379	14.0472	6.457014
1914	243.879	13.9039	6.450858
1917	244.373	13.7552	6.444306
1920	244.867	13.6037	6.436860
1923	245.364	13.4394	6.428520
1926	245.873	13.2576	6.419583
1929	246.39	13.062	6.410647
1932	246.894	12.8571	6.402208
1935	247.379	12.6464	6.393968
1938	247.873	12.4344	6.385429
1941	248.363	12.2234	6.376494
1944	248.861	12.0035	6.368054
1947	249.355	11.7831	6.359416
1950	249.859	11.5727	6.350282
1953	250.368	11.3733	6.341545
1956	250.864	11.1713	6.332014
1959	251.352	10.9242	6.321290
1962	251.842	10.6158	6.310369
1965	252.333	10.3006	6.299843
1968	252.833	10.042	6.290411
1971	253.322	9.825868	6.280979
1974	253.829	9.616965	6.270255
1977	254.342	9.441804	6.258936
1980	254.852	9.319215	6.248014
1983	255.347	9.209400	6.237391
1986	255.826	9.060796	6.226270
1989	256.32	8.846951	6.214653
1992	256.819	8.624383	6.203036
1995	257.32	8.457627	6.190823
1998	257.821	8.353136	6.178908
2001	258.341	8.295202	6.167986
2004	258.858	8.273905	6.157461
2007	259.364	8.277144	6.146440
2010	259.859	8.311845	6.135022
2013	260.352	8.384016	6.123802
2016	260.854	8.471889	6.112880
2019	261.36	8.563130	6.101362
2022	261.866	8.664661	6.090639
2025	262.375	8.789588	6.081306
2028	262.892	8.926476	6.071576
2031	263.399	9.060431	6.060852
2034	263.889	9.175508	6.049533
2037	264.389	9.272471	6.037817
2040	264.878	9.357300	6.026796
2043	265.385	9.445691	6.015775
2046	265.885	9.536395	6.004158
2049	266.402	9.626797	5.993136
2052	266.916	9.708584	5.982711
2055	267.424	9.773087	5.972187
2058	267.924	9.819569	5.961463
2061	268.421	9.852430	5.950641
2064	268.912	9.870460	5.939322
2067	269.413	9.864907	5.928102
2070	269.907	9.827182	5.916584
2073	270.418	9.778761	5.904073
2076	270.93	9.735754	5.892357
2079	271.433	9.701622	5.880839
2082	271.926	9.653352	5.868627
2085	272.416	9.577324	5.856413
2088	272.909	9.474648	5.843207
2091	273.412	9.364107	5.829803
2094	273.899	9.275211	5.817590
2097	274.405	9.219887	5.805874
2100	274.916	9.181896	5.793462
2103	275.432	9.160423	5.780653
2106	275.93	9.153543	5.767150
2109	276.418	9.156775	5.753448
2112	276.915	9.153912	5.740440
2115	277.409	9.125041	5.727929
2118	277.902	9.079509	5.714823
2121	278.418	9.028995	5.701021
2124	278.923	8.988248	5.686822
2127	279.436	8.964933	5.672325
2130	279.932	8.959674	5.657928
2133	280.427	8.976096	5.643431
2136	280.923	9.006109	5.628438
2139	281.42	9.047915	5.614337
2142	281.918	9.102417	5.601429
2145	282.416	9.164820	5.588124
2148	282.93	9.225725	5.572635
2151	283.454	9.285677	5.557045
2154	283.948	9.347542	5.542449
2157	284.441	9.407752	5.527357
2160	284.934	9.473312	5.512363
2163	285.432	9.532661	5.498065
2166	285.928	9.588496	5.483369
2169	286.427	9.597599	5.469071
2172	286.926	9.545689	5.454276
2175	287.431	9.436140	5.438787
2178	287.934	9.266461	5.423296
2181	288.427	9.028755	5.407906
2184	288.905	8.726684	5.391521
2187	289.385	8.365721	5.373946
2190	289.87	7.960331	5.356272
2193	290.355	7.516941	5.338101
2196	290.854	7.075703	5.319135
2199	291.364	6.680882	5.299871
2202	291.866	6.370750	5.280807
2205	292.365	6.159746	5.261841
2208	292.868	6.067381	5.242478
2211	293.37	6.124016	5.224009
2214	293.882	6.342005	5.205937
2217	294.402	6.745256	5.187865
2220	294.938	7.364077	5.169794
2223	295.483	8.215293	5.151126
2226	296.034	9.326475	5.133352
2229	296.58	10.6861	5.117267
2232	297.12	12.28	5.100784
2235	297.66	14.0721	5.083110
2238	298.208	15.9866	5.064541
2241	298.744	17.934	5.046172
2244	299.287	19.8477	5.026710
2247	299.83	21.6826	5.005063
2250	300.383	23.402	4.983316
2253	300.908	24.968	4.961869
2256	301.425	26.3617	4.938832
2259	301.937	27.5868	4.914206
2262	302.45	28.657	4.887892
2265	302.959	29.5916	4.860684
2268	303.473	30.4055	4.832781
2271	303.992	31.117	4.803885
2274	304.518	31.7448	4.773995
2277	305.029	32.3036	4.742915
2280	305.531	32.8006	4.710444
2283	306.029	33.2349	4.677476
2286	306.533	33.6106	4.643516
2289	307.031	33.9306	4.608363
2292	307.526	34.1982	4.571722
2295	308.028	34.4106	4.533987
2298	308.546	34.5631	4.495061
2301	309.049	34.6612	4.454447
2304	309.541	34.7039	4.412542
2307	310.023	34.698	4.370339
2310	310.512	34.6344	4.327640
2313	310.995	34.5216	4.283451
2316	311.485	34.3791	4.238368
2319	311.974	34.2148	4.192093
2322	312.471	34.0207	4.144925
2325	312.971	33.7956	4.096565
2328	313.467	33.5494	4.047013
2331	313.945	33.282	3.995972
2334	314.423	32.9961	3.943441
2337	314.907	32.6946	3.890017
2340	315.395	32.3777	3.835798
2343	315.88	32.0507	3.780487
2346	316.376	31.7204	3.724183
2349	316.879	31.3903	3.667580
2352	317.373	31.0653	3.610184
2355	317.859	30.7469	3.551992
2358	318.344	30.4383	3.494000
2361	318.827	30.1469	3.435709
2364	319.315	29.8742	3.376625
2367	319.801	29.6244	3.316745
2370	320.303	29.3947	3.256668
2373	320.808	29.1874	3.195894
2376	321.308	29.0035	3.135519
2379	321.801	28.8331	3.075143
2382	322.29	28.686	3.013377
2385	322.776	28.5622	2.950916
2388	323.27	28.4685	2.889845
2391	323.763	28.3996	2.830263
2394	324.268	28.359	2.769788
2397	324.777	28.3545	2.708817
2400	325.297	28.3928	2.647150
2403	325.793	28.4702	2.585781
2406	326.289	28.5807	2.525703
2409	326.789	28.7293	2.466122
2412	327.295	28.9212	2.406441
2415	327.799	29.1673	2.347754
2418	328.306	29.4641	2.291052
2421	328.827	29.8086	2.235145
2424	329.352	30.206	2.179536
2427	329.867	30.6667	2.124324
2430	330.379	31.1861	2.071098
2433	330.886	31.7607	2.020157
2436	331.402	32.3925	1.970009
2439	331.913	33.0852	1.921054
2442	332.433	33.8399	1.874581
2445	332.955	34.6455	1.829895
2448	333.498	35.5006	1.787295
2451	334.026	36.406	1.746979
2454	334.551	37.3546	1.707556
2457	335.065	38.3357	1.670617
2460	335.587	39.3264	1.635961
2463	336.102	40.3167	1.604185
2466	336.624	41.3024	1.575587
2469	337.146	42.2659	1.549273
2472	337.673	43.1898	1.524548
2475	338.204	44.0509	1.501114
2478	338.723	44.8586	1.479864
2481	339.233	45.6249	1.461097
2484	339.738	46.3405	1.442330
2487	340.243	46.9896	1.424457
2490	340.756	47.5632	1.409066
2493	341.255	48.0622	1.395066
2496	341.773	48.4988	1.381661
2499	342.293	48.8797	1.369250
2502	342.801	49.2153	1.357931
2505	343.302	49.5154	1.347406
2508	343.798	49.791	1.338073
2511	344.297	50.0507	1.329733
2514	344.797	50.302	1.321195
2517	345.295	50.5365	1.312457
2520	345.806	50.7569	1.304316
2523	346.321	50.9622	1.296969
2526	346.828	51.1421	1.290715
2529	347.328	51.2788	1.285950
2532	347.822	51.3906	1.281483
2535	348.316	51.4878	1.276420
2538	348.812	51.5704	1.270463
2541	349.307	51.6435	1.265202
2544	349.806	51.7006	1.260834
2547	350.314	51.7466	1.256267
2550	350.825	51.7862	1.251304
2553	351.322	51.822	1.246837
2556	351.811	51.8471	1.242270
2559	352.301	51.8619	1.237605
2562	352.793	51.8764	1.233833
2565	353.287	51.8954	1.230458
2568	353.782	51.9129	1.226785
2571	354.286	51.9225	1.223510
2574	354.797	51.9245	1.220334
2577	355.293	51.9239	1.217158
2580	355.791	51.9181	1.213684
2583	356.275	51.914	1.209912
2586	356.771	51.9107	1.206636
2589	357.265	51.9098	1.202268
2592	357.759	51.91	1.197702
2595	358.261	51.9112	1.193731
2598	358.771	51.9125	1.190059
2601	359.273	51.9097	1.187280
2604	359.768	51.9015	1.185196
2607	360.255	51.8925	1.183112
2610	360.749	51.8901	1.180632
2613	361.236	51.8913	1.178349
2616	361.733	51.9007	1.176067
2619	362.227	51.9144	1.173188
2622	362.732	51.9219	1.169814
2625	363.236	51.9272	1.166538
2628	363.735	51.9312	1.163164
2631	364.223	51.932	1.161080
2634	364.713	51.9307	1.159691
2637	365.203	51.9369	1.157707
2640	365.698	51.9506	1.155524
2643	366.189	51.9562	1.152844
2646	366.694	51.9475	1.150065
2649	367.207	51.9049	1.147981
2652	367.71	51.8154	1.144905
2655	368.201	51.6697	1.140835
2658	368.697	51.4665	1.136963
2661	369.188	51.2186	1.134582
2664	369.684	50.943	1.133987
2667	370.17	50.6602	1.133493
2670	370.671	50.3736	1.131806
2673	371.179	50.0923	1.129722
2676	371.686	49.8377	1.127440
2679	372.186	49.6059	1.124562
2682	372.674	49.3872	1.121783
2685	373.164	49.1738	1.119302
2688	373.656	48.9652	1.116026
2691	374.153	48.7626	1.113248
2694	374.644	48.5627	1.111760
2697	375.146	48.3601	1.110868
2700	375.65	48.1506	1.109578
2703	376.155	47.9326	1.107296
2706	376.647	47.7255	1.104318
2709	377.134	47.5369	1.101440
2712	377.622	47.3645	1.099158
2715	378.112	47.2126	1.097074
2718	378.603	47.0815	1.094990
2721	379.112	46.9627	1.092310
2724	379.605	46.8512	1.090127
2727	380.106	46.7441	1.088242
2730	380.596	46.6349	1.085066
2733	381.086	46.5355	1.082188
2736	381.575	46.4591	1.080204
2739	382.054	46.4035	1.078914
2742	382.546	46.3674	1.078320
2745	383.038	46.3549	1.077924
2748	383.547	46.3702	1.076734
2751	384.058	46.4087	1.074651
2754	384.544	46.4486	1.071475
2757	385.032	46.4713	1.068199
2760	385.52	46.4767	1.065619
2763	386.012	46.4745	1.064031
2766	386.503	46.4737	1.062345
2769	386.991	46.4665	1.061056
2772	387.499	46.4554	1.060461
2775	388.001	46.4477	1.059569
2778	388.507	46.451	1.058280
2781	389	46.4553	1.056891
2784	389.48	46.4543	1.054311
2787	389.969	46.4502	1.051830
2790	390.456	46.4421	1.049945
2793	390.949	46.4332	1.047166
2796	391.439	46.4198	1.043791
2799	391.947	46.4058	1.040416
2802	392.451	46.3981	1.037042
2805	392.951	46.3959	1.035355
2808	393.447	46.4336	1.035059
2811	393.941	46.6034	1.035358
2814	394.434	46.9409	1.035161
2817	394.929	47.3714	1.033376
2820	395.424	47.8036	1.030895
2823	395.929	48.199	1.029109
2826	396.434	48.5322	1.028316
2829	396.935	48.804	1.027325
2832	397.424	49.018	1.025439
2835	397.911	49.1835	1.023356
2838	398.396	49.3137	1.020875
2841	398.888	49.4146	1.018592
2844	399.374	49.4955	1.017899
2847	399.879	49.57	1.017304
2850	400.38	49.6375	1.016015
2853	400.88	49.693	1.014527
2856	401.369	49.7221	1.012543
2859	401.855	49.7291	1.009665
2862	402.339	49.7211	1.007382
2865	402.824	49.7075	1.005298
2868	403.307	49.6855	1.003612
2871	403.798	49.6493	1.002918
2874	404.297	49.6021	1.001331
2877	404.8	49.5645	0.998155
2880	405.293	49.5311	0.993489
2883	405.779	49.4914	0.988426
2886	406.258	49.4432	0.983363
2889	406.748	49.395	0.979293
2892	407.24	49.3481	0.979295
2895	407.714	49.2939	0.983666
2898	408.211	49.226	0.986746
2901	408.706	49.15	0.985953
2904	409.21	49.0777	0.983572
2907	409.695	48.9952	0.982878
2910	410.175	48.9135	0.983575
2913	410.657	48.8376	0.983874
2916	411.145	48.7725	0.983677
2919	411.633	48.7165	0.982984
2922	412.129	48.6606	0.980503
2925	412.616	48.5972	0.977128
2928	413.116	48.5213	0.975441
2931	413.6	48.434	0.975542
2934	414.091	48.3485	0.975643
2937	414.575	48.2644	0.974453
2940	415.055	48.1823	0.972965
2943	415.543	48.0956	0.971974
2946	416.031	48.0079	0.970784
2949	416.528	47.921	0.968501
2952	417.028	47.8377	0.965921
2955	417.52	47.7627	0.965128
2958	418.011	47.6977	0.965031
2961	418.495	47.6437	0.963741
2964	418.976	47.5902	0.962154
2967	419.461	47.5336	0.961262
2970	419.945	47.4717	0.960370
2973	420.44	47.4025	0.958385
2976	420.937	47.3283	0.956699
2979	421.434	47.2565	0.955310
2982	421.923	47.1867	0.954120
2985	422.406	47.1182	0.953824
2988	422.885	47.0514	0.953329
2991	423.368	46.9784	0.952437
2994	423.851	46.9033	0.951147
2997	424.336	46.8272	0.949659
3000	424.836	46.7455	0.948370
3003	425.344	46.6698	0.947378
3006	425.832	46.6098	0.945990
3009	426.321	46.5511	0.943906
3012	426.793	46.488	0.941922
3015	427.279	46.4201	0.941526
3018	427.767	46.3478	0.941130
3021	428.251	46.2706	0.939742
3024	428.74	46.1868	0.938154
3027	429.234	46.1053	0.935872
3030	429.732	46.0266	0.934285
3033	430.228	45.9501	0.934783
3036	430.7	45.8818	0.934784
3039	431.186	45.823	0.934091
3042	431.669	45.7769	0.933298
3045	432.149	45.7339	0.932207
3048	432.641	45.6822	0.931216
3051	433.138	45.6364	0.929529
3054	433.639	45.5991	0.928041
3057	434.124	45.5576	0.927844
3060	434.61	45.4941	0.927250
3063	435.094	45.4259	0.925464
3066	435.571	45.3664	0.923778
3069	436.058	45.3109	0.922190
3072	436.542	45.2522	0.920703
3075	437.035	45.1877	0.920208
3078	437.529	45.1136	0.919911
3081	438.03	45.0261	0.920012
3084	438.524	44.9263	0.919815
3087	438.996	44.8266	0.919718
3090	439.474	44.7245	0.919223
3093	439.95	44.6146	0.917933
3096	440.433	44.4943	0.916247
3099	440.916	44.3671	0.915056
3102	441.404	44.2387	0.913866
3105	441.903	44.1185	0.911882
3108	442.391	44.0128	0.909600
3111	442.876	43.909	0.908807
3114	443.357	43.8025	0.909603
3117	443.83	43.6936	0.909803
3120	444.313	43.5756	0.908812
3123	444.792	43.4449	0.907522
3126	445.283	43.3128	0.906829
3129	445.779	43.1852	0.906532
3132	446.275	43.0694	0.906534
3135	446.76	42.956	0.906138
3138	447.245	42.8425	0.904253
3141	447.722	42.7317	0.901871
3144	448.202	42.6184	0.900582
3147	448.685	42.498	0.900882
3150	449.172	42.3759	0.901280
3153	449.662	42.258	0.900190
3156	450.159	42.1356	0.898999
3159	450.647	42.0124	0.898306
3162	451.133	41.8918	0.897712
3165	451.615	41.7722	0.897416
3166	451.782	41.7313	0.897019