File: TGA/TPS.txt
[TA Ascii File]
DTG-60

File Name :	C:\TAData\Caro Iacovone\TPS.txt

[File Information]
File Name:	TPS.tad
Sample Name:	TPS
Lot No:	001
Acquire Date:	22/03/22
Acquire Time:	13:07:00(-0300)
Detector Type:	DTG-60
Detector Serial No:	C30564800519TK
Operator:	Carolina Iacovone
Atmosphere:	Nitrogen
Gas Flow:	30[ml/min]
Annotation:
Pan Name:	Aluminum
Sample Weight:	7.971[mg]
Molecular Weight:	0.00

[Measurements Program]
[Temperature Program]
Start Temp.
Temp. Rate	Hold Temp.	Hold Time	Gas
[ C/min  ]	[   C  ]	[ min  ]
3.00	30.0	10
10.00	450.0	0

[Data]
Time	Temp	DTA	TGA
sec	C	uV	mg
0.000000	26.9322	-2.218030	7.969227
3.000000	26.948	-2.209674	7.972902
6.000000	26.984	-2.204903	7.973199
9.000000	27.0481	-2.215034	7.969625
12	27.1358	-2.267030	7.967739
15	27.2122	-2.378412	7.970122
18	27.3003	-2.531392	7.972208
21	27.3978	-2.698184	7.969626
24	27.5099	-2.857770	7.964363
27	27.6249	-3.006689	7.963668
30	27.7219	-3.145191	7.963867
33	27.8312	-3.271550	7.961882
36	27.9238	-3.389283	7.962279
39	28.0272	-3.492115	7.963769
42	28.1309	-3.593473	7.965557
45	28.2347	-3.687266	7.966947
48	28.3543	-3.771912	7.967146
51	28.4662	-3.848236	7.966452
54	28.5757	-3.912552	7.964168
57	28.674	-3.962811	7.963573
60	28.736	-3.991579	7.963672
63	28.8009	-3.998974	7.962878
66	28.8626	-3.993352	7.963176
69	28.9343	-3.978839	7.963573
72	29.0069	-3.952060	7.964666
75	29.0726	-3.914514	7.965262
78	29.1463	-3.869987	7.963574
81	29.201	-3.821632	7.963177
84	29.2504	-3.770334	7.966454
87	29.2824	-3.711091	7.969831
90	29.3172	-3.655526	7.970228
93	29.3562	-3.596842	7.968341
96	29.3951	-3.538337	7.965561
99	29.438	-3.475678	7.963972
102	29.4896	-3.414166	7.963674
105	29.532	-3.353649	7.963078
108	29.5561	-3.293172	7.959305
111	29.5738	-3.231490	7.957220
114	29.5915	-3.173865	7.958213
117	29.617	-3.118455	7.957320
120	29.632	-3.063240	7.956028
123	29.6613	-3.003836	7.954340
126	29.702	-2.950223	7.953844
129	29.7261	-2.894165	7.958909
132	29.7474	-2.841249	7.963079
135	29.7535	-2.787433	7.959802
138	29.7623	-2.734571	7.952156
141	29.7703	-2.688119	7.945701
144	29.7851	-2.639940	7.943219
147	29.7952	-2.594232	7.946794
150	29.8134	-2.549440	7.950964
153	29.8473	-2.504404	7.950865
156	29.875	-2.460273	7.951064
159	29.8677	-2.415407	7.950965
162	29.8696	-2.373193	7.949078
165	29.8648	-2.333205	7.951362
168	29.8711	-2.301358	7.953944
171	29.8768	-2.261686	7.950369
174	29.8879	-2.224228	7.948283
177	29.9103	-2.189431	7.948085
180	29.9265	-2.150882	7.947886
183	29.9304	-2.115906	7.948283
186	29.9213	-2.080561	7.945602
189	29.92	-2.051883	7.941630
192	29.9183	-2.024312	7.942822
195	29.9178	-1.994710	7.946695
198	29.9186	-1.962688	7.944709
201	29.938	-1.933364	7.938353
204	29.9572	-1.906133	7.936665
207	29.9599	-1.877461	7.939545
210	29.9484	-1.850104	7.942226
213	29.9422	-1.824813	7.943219
216	29.9342	-1.802775	7.944212
219	29.9286	-1.778747	7.943716
222	29.928	-1.750657	7.943716
225	29.9454	-1.727413	7.946198
228	29.9555	-1.708449	7.947787
231	29.9664	-1.686198	7.946893
234	29.9505	-1.664753	7.944609
237	29.9449	-1.643033	7.943418
240	29.9364	-1.624620	7.941829
243	29.9359	-1.605616	7.939744
246	29.9317	-1.585294	7.940637
249	29.9312	-1.568270	7.940339
252	29.9479	-1.554341	7.938253
255	29.9697	-1.536186	7.938253
258	29.9582	-1.515390	7.938055
261	29.9445	-1.496921	7.936466
264	29.9351	-1.479467	7.936665
267	29.93	-1.469217	7.938155
270	29.9193	-1.450210	7.939942
273	29.9161	-1.432716	7.939644
276	29.9253	-1.421782	7.938453
279	29.9399	-1.406663	7.937559
282	29.9439	-1.389329	7.937360
285	29.9358	-1.374956	7.934579
288	29.9251	-1.365871	7.931898
291	29.9065	-1.356459	7.934182
294	29.9068	-1.343989	7.936069
297	29.8933	-1.328157	7.932097
300	29.9004	-1.318096	7.926635
303	29.9174	-1.308334	7.922861
306	29.929	-1.293978	7.922762
309	29.9186	-1.281294	7.927132
312	29.9055	-1.272181	7.931799
315	29.8913	-1.263132	7.933388
318	29.8894	-1.253514	7.932792
321	29.8736	-1.240543	7.931600
324	29.8831	-1.231977	7.931104
327	29.884	-1.224453	7.931302
330	29.9026	-1.213673	7.931997
333	29.8958	-1.202889	7.932295
336	29.893	-1.193002	7.930707
339	29.88	-1.184817	7.929714
342	29.8727	-1.178708	7.932494
345	29.8626	-1.168120	7.934480
348	29.8538	-1.162590	7.933984
351	29.8699	-1.158138	7.930905
354	29.8935	-1.151524	7.931103
357	29.8832	-1.137085	7.931898
360	29.8787	-1.127687	7.926933
363	29.8635	-1.118978	7.922067
366	29.8535	-1.115680	7.922464
369	29.8481	-1.106031	7.922564
372	29.8399	-1.098418	7.922067
375	29.847	-1.095221	7.923556
378	29.8514	-1.091679	7.922464
381	29.869	-1.084501	7.918492
384	29.8663	-1.075865	7.917201
387	29.8561	-1.069660	7.919584
390	29.8402	-1.064030	7.922265
393	29.8362	-1.057221	7.925145
396	29.8239	-1.049828	7.927032
399	29.8252	-1.047392	7.925145
402	29.8364	-1.043929	7.925244
405	29.8526	-1.037463	7.927628
408	29.8503	-1.029601	7.927429
411	29.8461	-1.024899	7.925841
414	29.8299	-1.019715	7.926238
417	29.822	-1.013870	7.923457
420	29.8114	-1.004911	7.917400
423	29.8125	-0.999750	7.915016
426	29.8085	-0.994279	7.917797
429	29.8258	-0.988458	7.919882
432	29.8302	-0.978381	7.919981
435	29.8321	-0.972656	7.921670
438	29.817	-0.968970	7.921570
441	29.8076	-0.965029	7.920279
444	29.7995	-0.957042	7.920180
447	29.7913	-0.952148	7.920875
450	29.7942	-0.948845	7.920279
453	29.8167	-0.947505	7.920974
456	29.8192	-0.935667	7.921074
459	29.825	-0.929173	7.921074
462	29.8121	-0.924186	7.924450
465	29.8031	-0.927124	7.926336
468	29.7938	-0.921244	7.924251
471	29.7834	-0.918005	7.918591
474	29.7792	-0.919119	7.911838
477	29.783	-0.917915	7.911838
480	29.8081	-0.911845	7.914917
483	29.813	-0.902922	7.916108
486	29.8073	-0.899714	7.917002
489	29.7957	-0.898171	7.915909
492	29.7895	-0.891411	7.913427
495	29.7783	-0.885929	7.912632
498	29.7744	-0.881047	7.912036
501	29.777	-0.877237	7.909455
504	29.7872	-0.871517	7.905682
507	29.7981	-0.863786	7.905682
510	29.8029	-0.860725	7.909356
513	29.7929	-0.856060	7.909157
516	29.7834	-0.853506	7.908065
519	29.764	-0.850083	7.911441
522	29.7688	-0.846493	7.915711
525	29.7579	-0.841950	7.916605
528	29.7693	-0.836779	7.914718
531	29.7769	-0.830202	7.914321
534	29.7909	-0.822582	7.914221
537	29.7836	-0.818482	7.913427
540	29.7743	-0.814167	7.909753
543	29.7606	-0.807654	7.905780
546	29.7537	-0.805226	7.904390
549	29.7512	-0.802576	7.904788
552	29.7712	-0.801416	7.905482
555	29.7698	-0.796637	7.905880
558	29.7824	-0.792410	7.907568
561	29.7748	-0.785411	7.910050
564	29.7697	-0.784791	7.907866
567	29.7589	-0.776000	7.904887
570	29.7527	-0.775684	7.905979
573	29.7488	-0.775707	7.909356
576	29.7432	-0.774814	7.909852
579	29.7592	-0.769974	7.907370
582	29.7713	-0.765011	7.906178
585	29.7788	-0.761035	7.905185
588	29.7719	-0.755505	7.905682
591	29.7631	-0.748654	7.908164
594	29.7459	-0.749772	7.906376
597	29.7481	-0.748755	7.900617
600	29.7415	-0.747475	7.895255
603	29.7421	-0.740635	7.895949
606	29.7547	-0.735034	7.900418
609	29.7694	-0.728672	7.902503
612	29.7695	-0.724361	7.904092
615	29.7521	-0.719350	7.904589
618	29.7457	-0.713577	7.902802
621	29.7505	-0.714309	7.903099
624	29.7336	-0.711986	7.904490
627	29.7367	-0.710249	7.904390
630	29.7404	-0.708634	7.903199
633	29.7647	-0.701951	7.901709
636	29.7682	-0.698046	7.901114
639	29.7598	-0.691207	7.901312
642	29.7457	-0.689171	7.899723
645	29.7373	-0.691938	7.897538
648	29.7432	-0.688189	7.899723
651	29.7838	-0.685207	7.900319
654	29.8423	-0.694561	7.894659
657	29.9454	-0.743074	7.891580
660	30.0612	-0.833257	7.896149
663	30.1964	-0.977007	7.900320
666	30.3376	-1.158242	7.899824
669	30.5026	-1.380572	7.898434
672	30.7022	-1.630962	7.896946
675	30.9101	-1.901641	7.897244
678	31.1528	-2.188450	7.898139
681	31.4123	-2.493420	7.895657
684	31.6983	-2.799222	7.895658
687	31.9773	-3.107398	7.899532
690	32.2626	-3.413744	7.901122
693	32.5665	-3.722932	7.897945
696	32.8865	-4.031013	7.895265
699	33.2133	-4.331243	7.896159
702	33.5516	-4.622789	7.898942
705	33.9199	-4.910100	7.900630
708	34.307	-5.190358	7.898447
711	34.6825	-5.460260	7.892688
714	35.0613	-5.720601	7.891995
717	35.4418	-5.972735	7.895571
720	35.8473	-6.221672	7.894778
723	36.245	-6.465074	7.891601
726	36.6583	-6.700662	7.888822
729	37.0876	-6.932026	7.884752
732	37.5456	-7.155400	7.882370
735	37.992	-7.370823	7.885152
738	38.4343	-7.579844	7.889325
741	38.8667	-7.785634	7.891710
744	39.3153	-7.986111	7.892406
747	39.7759	-8.180084	7.889031
750	40.2408	-8.371531	7.887444
753	40.683	-8.558607	7.891517
756	41.1599	-8.745213	7.894696
759	41.6407	-8.924188	7.894102
762	42.1125	-9.108091	7.892912
765	42.5777	-9.282951	7.890232
768	43.0458	-9.460972	7.887553
771	43.5178	-9.638103	7.887455
774	43.9908	-9.810487	7.888946
777	44.4749	-9.978494	7.889444
780	44.9746	-10.1466	7.889148
783	45.4882	-10.3145	7.888454
786	45.9862	-10.4808	7.883888
789	46.4783	-10.648	7.879222
792	46.968	-10.8242	7.882103
795	47.4667	-10.9981	7.885382
798	47.9555	-11.1722	7.886576
801	48.4503	-11.3372	7.889358
804	48.9592	-11.5072	7.887671
807	49.4891	-11.6841	7.880920
810	50.0094	-11.8693	7.873275
813	50.5068	-12.0613	7.870497
816	51	-12.2554	7.873577
819	51.5062	-12.4438	7.872685
822	51.9908	-12.6229	7.865238
825	52.4928	-12.7857	7.857792
828	52.9881	-12.9449	7.856503
831	53.5114	-13.0977	7.858093
834	54.0382	-13.251	7.857499
837	54.5481	-13.4009	7.857104
840	55.0502	-13.556	7.856609
843	55.5488	-13.7178	7.852043
846	56.0633	-13.8813	7.846880
849	56.5701	-14.0456	7.847676
852	57.068	-14.2129	7.850161
855	57.5934	-14.3819	7.846984
858	58.1257	-14.5484	7.841823
861	58.6491	-14.7178	7.841824
864	59.1591	-14.8831	7.843415
867	59.6675	-15.049	7.842722
870	60.1794	-15.2146	7.842127
873	60.6793	-15.3802	7.840738
876	61.1826	-15.5447	7.837563
879	61.6958	-15.7099	7.835479
882	62.2228	-15.8733	7.832402
885	62.7472	-16.03	7.828233
888	63.2583	-16.1837	7.827341
891	63.7587	-16.3424	7.827442
894	64.2706	-16.5022	7.822180
897	64.7743	-16.6612	7.817416
900	65.2797	-16.8106	7.817715
903	65.7906	-16.9651	7.816624
906	66.3164	-17.1174	7.814938
909	66.85	-17.2675	7.815834
912	67.368	-17.412	7.814445
915	67.8781	-17.5614	7.809382
918	68.3917	-17.7109	7.804319
921	68.8974	-17.854	7.802732
924	69.407	-17.9944	7.803826
927	69.9091	-18.1358	7.803530
930	70.4276	-18.2755	7.800354
933	70.9513	-18.4149	7.797475
936	71.4704	-18.5404	7.794101
939	71.9788	-18.6681	7.791620
942	72.4752	-18.7972	7.788345
945	72.9837	-18.9251	7.781197
948	73.4888	-19.049	7.773452
951	73.9849	-19.1701	7.769681
954	74.4955	-19.2919	7.772264
957	75.0194	-19.4081	7.773457
960	75.5433	-19.5293	7.770877
963	76.0607	-19.6451	7.769191
966	76.5735	-19.7679	7.766909
969	77.0809	-19.8907	7.763534
972	77.5807	-20.009	7.763039
975	78.0926	-20.1275	7.764530
978	78.6006	-20.2441	7.762248
981	79.1256	-20.3575	7.757185
984	79.6479	-20.4641	7.753711
987	80.1682	-20.5635	7.750237
990	80.6743	-20.664	7.743883
993	81.1778	-20.7616	7.737628
996	81.6823	-20.8576	7.735545
999	82.1758	-20.9466	7.734156
1002	82.6791	-21.035	7.728199
1005	83.1923	-21.1192	7.719462
1008	83.7167	-21.1987	7.714697
1011	84.2338	-21.2685	7.714103
1014	84.7416	-21.3337	7.712417
1017	85.2524	-21.3945	7.709737
1020	85.7528	-21.4499	7.707753
1023	86.2526	-21.4993	7.703783
1026	86.7547	-21.5484	7.699117
1029	87.2683	-21.589	7.694849
1032	87.7928	-21.6265	7.691672
1035	88.3173	-21.6538	7.689589
1038	88.8383	-21.676	7.685916
1041	89.345	-21.695	7.682541
1044	89.8531	-21.7077	7.679961
1047	90.3534	-21.7144	7.677381
1050	90.8455	-21.7191	7.675794
1053	91.3491	-21.7207	7.673710
1056	91.8658	-21.7158	7.670136
1059	92.3803	-21.7114	7.665173
1062	92.9009	-21.7001	7.659614
1065	93.41	-21.6882	7.653359
1068	93.9124	-21.6687	7.647998
1071	94.4108	-21.6408	7.642935
1074	94.909	-21.6079	7.639163
1077	95.4147	-21.569	7.636285
1080	95.9229	-21.5251	7.631619
1083	96.4436	-21.4719	7.627351
1086	96.9676	-21.4163	7.623579
1089	97.4818	-21.3535	7.620999
1092	97.9955	-21.2831	7.616731
1095	98.5042	-21.2093	7.613256
1098	99.0064	-21.1296	7.612563
1101	99.5166	-21.0525	7.611373
1104	100.025	-20.9689	7.609190
1107	100.54	-20.8804	7.603829
1110	101.056	-20.7889	7.596879
1113	101.578	-20.6943	7.593307
1116	102.097	-20.5967	7.592613
1119	102.596	-20.4902	7.591522
1122	103.095	-20.3766	7.588644
1125	103.593	-20.2601	7.582985
1128	104.105	-20.1324	7.576830
1131	104.615	-20.0016	7.573256
1134	105.132	-19.8613	7.571272
1137	105.656	-19.7191	7.566905
1140	106.17	-19.5736	7.560551
1143	106.686	-19.4276	7.554991
1146	107.194	-19.2777	7.548936
1149	107.69	-19.1264	7.543376
1152	108.206	-18.9717	7.541789
1155	108.716	-18.8087	7.542387
1158	109.238	-18.6453	7.541892
1161	109.764	-18.4758	7.539113
1164	110.284	-18.3024	7.535540
1167	110.793	-18.1271	7.532562
1170	111.294	-17.944	7.530280
1173	111.794	-17.7601	7.526408
1176	112.295	-17.5742	7.519260
1179	112.801	-17.3847	7.512906
1182	113.315	-17.189	7.510227
1185	113.831	-16.9926	7.508838
1188	114.349	-16.7911	7.504371
1191	114.86	-16.5844	7.497322
1194	115.37	-16.3707	7.495636
1197	115.873	-16.1556	7.495141
1200	116.375	-15.9393	7.490078
1203	116.887	-15.7206	7.486306
1206	117.405	-15.4976	7.484719
1209	117.924	-15.2707	7.482536
1212	118.454	-15.0396	7.479955
1215	118.984	-14.8029	7.476879
1218	119.494	-14.564	7.472313
1221	119.99	-14.3188	7.465462
1224	120.484	-14.0729	7.456229
1227	120.996	-13.8173	7.450967
1230	121.5	-13.5533	7.451167
1233	122.016	-13.2807	7.450971
1236	122.537	-13.0098	7.449383
1239	123.055	-12.736	7.447001
1242	123.573	-12.4607	7.443130
1245	124.08	-12.1835	7.439656
1248	124.576	-11.9065	7.436481
1251	125.085	-11.6256	7.432211
1254	125.596	-11.3376	7.427944
1257	126.109	-11.0529	7.424171
1260	126.633	-10.767	7.418414
1263	127.164	-10.4836	7.412953
1266	127.68	-10.1977	7.410870
1269	128.195	-9.911586	7.410275
1272	128.704	-9.630166	7.408391
1275	129.212	-9.349105	7.405016
1278	129.724	-9.068345	7.400450
1281	130.235	-8.783071	7.394294
1284	130.754	-8.500748	7.389132
1287	131.272	-8.222107	7.387247
1290	131.796	-7.938263	7.384468
1293	132.308	-7.656661	7.377817
1296	132.807	-7.372624	7.371463
1299	133.309	-7.093096	7.367194
1302	133.819	-6.815963	7.364614
1305	134.328	-6.542638	7.364417
1308	134.84	-6.270169	7.362830
1311	135.362	-5.995582	7.359058
1314	135.897	-5.718406	7.355584
1317	136.402	-5.442054	7.350919
1320	136.912	-5.168195	7.345955
1323	137.411	-4.900248	7.344666
1326	137.926	-4.630462	7.344667
1329	138.438	-4.358325	7.342683
1332	138.951	-4.087401	7.339705
1335	139.473	-3.822948	7.336728
1338	139.995	-3.560377	7.333750
1341	140.516	-3.295636	7.330674
1344	141.028	-3.032227	7.327399
1347	141.522	-2.776026	7.323925
1350	142.029	-2.526242	7.320549
1353	142.535	-2.277134	7.315486
1356	143.038	-2.031774	7.306452
1359	143.559	-1.787458	7.296721
1362	144.082	-1.545421	7.293744
1365	144.6	-1.300654	7.295831
1368	145.114	-1.054284	7.297025
1371	145.623	-0.812850	7.296133
1374	146.124	-0.578226	7.293850
1377	146.628	-0.343697	7.290575
1380	147.139	-0.103941	7.285810
1383	147.652	0.132869	7.278761
1386	148.173	0.364573	7.273798
1389	148.706	0.595946	7.270919
1392	149.225	0.824121	7.264665
1395	149.731	1.050536	7.256126
1398	150.231	1.265953	7.249475
1401	150.731	1.479305	7.244014
1404	151.241	1.693757	7.239547
1407	151.747	1.904670	7.235477
1410	152.262	2.109615	7.231805
1413	152.793	2.312916	7.228132
1416	153.307	2.521222	7.224559
1419	153.816	2.727980	7.221383
1422	154.308	2.929575	7.218604
1425	154.816	3.127954	7.216321
1428	155.321	3.322551	7.216721
1431	155.829	3.513467	7.219999
1434	156.344	3.694971	7.222285
1437	156.863	3.874969	7.222187
1440	157.387	4.056759	7.220601
1443	157.907	4.243737	7.218219
1446	158.409	4.429538	7.216234
1449	158.911	4.609605	7.214051
1452	159.419	4.791662	7.211371
1455	159.926	4.973200	7.208493
1458	160.426	5.152784	7.205814
1461	160.945	5.327718	7.203829
1464	161.465	5.501879	7.201746
1467	161.983	5.679575	7.199365
1470	162.488	5.854649	7.197380
1473	162.986	6.024821	7.194800
1476	163.488	6.194026	7.191028
1479	163.995	6.364079	7.187355
1482	164.501	6.533327	7.184675
1485	165.01	6.699301	7.183187
1488	165.535	6.864722	7.181004
1491	166.056	7.032618	7.177530
1494	166.574	7.199924	7.173957
1497	167.075	7.359431	7.170980
1500	167.577	7.519250	7.169393
1503	168.087	7.680058	7.168401
1506	168.596	7.844905	7.166218
1509	169.109	8.003313	7.163042
1512	169.636	8.157254	7.159965
1515	170.152	8.314006	7.157485
1518	170.669	8.478475	7.155599
1521	171.166	8.646139	7.153913
1524	171.671	8.807879	7.151730
1527	172.175	8.974232	7.149249
1530	172.686	9.142241	7.147165
1533	173.185	9.307768	7.145280
1536	173.696	9.469362	7.142998
1539	174.218	9.627039	7.140616
1542	174.746	9.791687	7.138135
1545	175.252	9.950955	7.136250
1548	175.749	10.108	7.134861
1551	176.256	10.263	7.132181
1554	176.759	10.4172	7.128509
1557	177.266	10.5693	7.125631
1560	177.775	10.7162	7.123051
1563	178.297	10.8585	7.120768
1566	178.822	10.996	7.119479
1569	179.339	11.1352	7.117793
1572	179.843	11.2678	7.115510
1575	180.341	11.3945	7.111938
1578	180.84	11.5203	7.108463
1581	181.351	11.6476	7.106976
1584	181.844	11.7727	7.106282
1587	182.364	11.8948	7.104596
1590	182.882	12.0147	7.101915
1593	183.406	12.1442	7.099236
1596	183.912	12.2693	7.097053
1599	184.411	12.3933	7.095466
1602	184.914	12.5185	7.093580
1605	185.418	12.6456	7.091994
1608	185.926	12.7745	7.090506
1611	186.444	12.9003	7.088223
1614	186.955	13.03	7.085146
1617	187.483	13.1634	7.082367
1620	187.989	13.3025	7.079391
1623	188.498	13.4307	7.076512
1626	189.004	13.5618	7.074031
1629	189.51	13.6941	7.071451
1632	190.011	13.8292	7.069864
1635	190.514	13.9615	7.068674
1638	191.03	14.0913	7.066689
1641	191.552	14.2255	7.064705
1644	192.072	14.3675	7.062224
1647	192.573	14.5049	7.058849
1650	193.079	14.6434	7.056170
1653	193.576	14.7842	7.054285
1656	194.085	14.9283	7.052102
1659	194.588	15.0745	7.049720
1662	195.099	15.2219	7.046643
1665	195.615	15.3712	7.043665
1668	196.147	15.5293	7.041284
1671	196.654	15.6869	7.039102
1674	197.157	15.8398	7.036819
1677	197.658	15.9962	7.034238
1680	198.175	16.1524	7.031360
1683	198.669	16.3114	7.028383
1686	199.179	16.4667	7.026001
1689	199.695	16.6217	7.023421
1692	200.228	16.7834	7.019252
1695	200.736	16.9466	7.015381
1698	201.24	17.1032	7.012205
1701	201.742	17.2609	7.009326
1704	202.248	17.4211	7.007044
1707	202.756	17.5855	7.003669
1710	203.265	17.748	6.999003
1713	203.772	17.9175	6.996225
1716	204.295	18.0926	6.995332
1719	204.814	18.2791	6.993448
1722	205.324	18.4604	6.990470
1725	205.827	18.6473	6.987095
1728	206.331	18.8382	6.983721
1731	206.84	19.0354	6.980048
1734	207.339	19.2361	6.976475
1737	207.853	19.4353	6.974193
1740	208.37	19.6365	6.971811
1743	208.903	19.8383	6.968436
1746	209.414	20.043	6.963969
1749	209.922	20.2472	6.959601
1752	210.422	20.4537	6.955830
1755	210.929	20.6613	6.952455
1758	211.431	20.8732	6.949080
1761	211.936	21.087	6.945507
1764	212.447	21.3058	6.941636
1767	212.974	21.5268	6.937963
1770	213.495	21.7544	6.934191
1773	214.005	21.9819	6.929923
1776	214.509	22.2121	6.926548
1779	215.025	22.447	6.923968
1782	215.522	22.6861	6.920096
1785	216.031	22.9309	6.915133
1788	216.541	23.1805	6.911460
1791	217.071	23.4383	6.909178
1794	217.594	23.7015	6.905605
1797	218.106	23.9687	6.901237
1800	218.617	24.2361	6.896572
1803	219.124	24.5034	6.892501
1806	219.632	24.7748	6.888532
1809	220.138	25.0474	6.885951
1812	220.637	25.3207	6.883867
1815	221.151	25.5939	6.880790
1818	221.675	25.8695	6.875131
1821	222.207	26.1803	6.869274
1824	222.708	26.5108	6.864112
1827	223.211	26.8158	6.859149
1830	223.731	27.0917	6.854384
1833	224.23	27.4153	6.849618
1836	224.739	27.7806	6.844854
1839	225.258	28.1293	6.840982
1842	225.773	28.4748	6.837310
1845	226.297	28.7873	6.832347
1848	226.833	29.101	6.827185
1851	227.333	29.5274	6.823512
1854	227.832	29.9479	6.819343
1857	228.327	30.1483	6.813783
1860	228.828	30.2198	6.808721
1863	229.326	30.2504	6.806140
1866	229.855	30.2976	6.803361
1869	230.362	30.4248	6.800384
1872	230.873	30.5681	6.796711
1875	231.371	30.6154	6.790854
1878	231.875	30.6067	6.784400
1881	232.366	30.5725	6.778245
1884	232.857	30.5231	6.773083
1887	233.353	30.4618	6.767822
1890	233.854	30.3926	6.762262
1893	234.366	30.3097	6.756405
1896	234.875	30.2099	6.750051
1899	235.384	30.0887	6.744194
1902	235.881	29.9431	6.738337
1905	236.376	29.7765	6.732181
1908	236.867	29.5784	6.726721
1911	237.358	29.3622	6.721161
1914	237.853	29.139	6.714510
1917	238.36	28.9138	6.707659
1920	238.877	28.6913	6.700015
1923	239.385	28.4801	6.692966
1926	239.879	28.2798	6.686214
1929	240.379	28.0747	6.678967
1932	240.87	27.8594	6.670925
1935	241.362	27.6658	6.662386
1938	241.863	27.5033	6.654145
1941	242.358	27.3582	6.645607
1944	242.866	27.2029	6.637267
1947	243.37	27.0342	6.629622
1950	243.878	26.8695	6.621480
1953	244.381	26.7025	6.612942
1956	244.872	26.5419	6.604105
1959	245.366	26.3843	6.595269
1962	245.858	26.2336	6.586631
1965	246.365	26.1037	6.578490
1968	246.877	25.988	6.569952
1971	247.381	25.876	6.560420
1974	247.894	25.7651	6.551186
1977	248.391	25.6558	6.540761
1980	248.898	25.5472	6.529839
1983	249.39	25.429	6.519413
1986	249.88	25.3058	6.508790
1989	250.378	25.1788	6.498662
1992	250.879	25.0552	6.489329
1995	251.388	24.9354	6.479201
1998	251.901	24.8149	6.467783
2001	252.405	24.7064	6.456067
2004	252.913	24.6197	6.444251
2007	253.225	24.5681	6.436705
2010	253.72	24.4912	6.425187
2013	254.221	24.3929	6.412577
2016	254.74	24.2635	6.400166
2019	255.255	24.1451	6.389542
2022	255.757	24.066	6.379613
2025	256.247	24.0195	6.368791
2028	256.748	24.0085	6.357173
2031	257.254	24.0335	6.345755
2034	257.764	24.12	6.333740
2037	258.281	24.3239	6.321032
2040	258.805	24.6395	6.309414
2043	259.331	25.0018	6.298194
2046	259.847	25.3702	6.286578
2049	260.354	25.7537	6.275755
2052	260.853	26.1755	6.265330
2055	261.361	26.5902	6.253713
2058	261.874	26.9789	6.241798
2061	262.376	27.3799	6.230578
2064	262.894	27.8275	6.219259
2067	263.42	28.3156	6.207741
2070	263.943	28.8353	6.196422
2073	264.447	29.3321	6.185898
2076	264.945	29.7629	6.176068
2079	265.443	30.0856	6.165842
2082	265.945	30.2995	6.154721
2085	266.44	30.4545	6.143401
2088	266.947	30.5793	6.131388
2091	267.453	30.6774	6.119373
2094	267.967	30.7507	6.107855
2097	268.469	30.8101	6.096040
2100	268.972	30.8614	6.084025
2103	269.441	30.8921	6.072507
2106	269.916	30.7849	6.061189
2109	270.401	30.4873	6.049373
2112	270.875	30.0782	6.037060
2115	271.367	29.6051	6.024252
2118	271.871	29.0616	6.011344
2121	272.363	28.4756	5.998932
2124	272.851	27.8882	5.986918
2127	273.325	27.3267	5.975003
2130	273.811	26.7581	5.963188
2133	274.288	26.1731	5.951173
2136	274.768	25.5865	5.938464
2139	275.25	25.0108	5.925059
2142	275.737	24.4258	5.911158
2145	276.23	23.8034	5.897356
2148	276.719	23.1474	5.884150
2151	277.197	22.4841	5.870845
2154	277.675	21.8302	5.857837
2157	278.153	21.1767	5.845625
2160	278.632	20.5132	5.832716
2163	279.11	19.8446	5.819113
2166	279.597	19.165	5.805808
2169	280.087	18.4888	5.792503
2172	280.58	17.8357	5.778601
2175	281.068	17.2196	5.764700
2178	281.553	16.6358	5.751792
2181	282.033	16.0831	5.739381
2184	282.511	15.5551	5.726573
2187	283.003	15.0733	5.712274
2190	283.487	14.6663	5.697876
2193	283.989	14.3282	5.683876
2196	284.495	14.0226	5.670372
2199	284.996	13.739	5.656074
2202	285.485	13.4664	5.640485
2205	285.978	13.1878	5.624796
2208	286.462	12.8891	5.609505
2211	286.946	12.5637	5.594512
2214	287.425	12.211	5.578823
2217	287.924	11.827	5.562836
2220	288.419	11.4361	5.546651
2223	288.928	11.0792	5.529771
2226	289.423	10.7869	5.512096
2229	289.921	10.5625	5.494521
2232	290.407	10.4033	5.477343
2235	290.898	10.3002	5.460165
2238	291.394	10.2426	5.442391
2241	291.891	10.242	5.424220
2244	292.399	10.3213	5.406545
2247	292.921	10.5016	5.389168
2250	293.434	10.8118	5.371394
2253	293.96	11.2828	5.354117
2256	294.481	11.9337	5.336144
2259	295.003	12.7921	5.316980
2262	295.528	13.8641	5.298015
2265	296.068	15.1555	5.280440
2268	296.606	16.6425	5.262368
2271	297.153	18.2776	5.243701
2274	297.699	20.0103	5.225033
2277	298.252	21.7784	5.205670
2280	298.786	23.5345	5.186208
2283	299.311	25.2393	5.166349
2286	299.83	26.8675	5.144901
2289	300.355	28.3806	5.122261
2292	300.874	29.7742	5.098728
2295	301.397	31.0541	5.074101
2298	301.921	32.2402	5.048483
2301	302.448	33.3069	5.022069
2304	302.971	34.2061	4.994365
2307	303.485	34.9241	4.965270
2310	303.977	35.4949	4.934884
2313	304.475	35.9503	4.903605
2316	304.976	36.3358	4.872028
2319	305.485	36.7148	4.838961
2322	305.991	37.0974	4.805099
2325	306.493	37.4761	4.770046
2328	307.003	37.8254	4.733504
2331	307.504	38.0991	4.696266
2334	307.999	38.264	4.659624
2337	308.494	38.3397	4.621394
2340	308.981	38.3683	4.580680
2343	309.476	38.3536	4.538775
2346	309.962	38.2825	4.494784
2349	310.47	38.158	4.449701
2352	310.974	38.0021	4.404122
2355	311.478	37.8146	4.358840
2358	311.972	37.5904	4.313162
2361	312.452	37.3427	4.266391
2364	312.944	37.0835	4.217932
2367	313.44	36.8082	4.165898
2370	313.922	36.5225	4.112374
2373	314.416	36.2355	4.059446
2376	314.914	35.9501	4.005922
2379	315.425	35.6516	3.950611
2382	315.923	35.359	3.894605
2385	316.412	35.0766	3.837903
2388	316.9	34.8056	3.780109
2391	317.383	34.5551	3.721620
2394	317.879	34.297	3.662436
2397	318.368	34.0236	3.602954
2400	318.866	33.7463	3.543174
2403	319.37	33.47	3.482401
2406	319.876	33.2025	3.420734
2409	320.37	32.95	3.358869
2412	320.857	32.7248	3.297003
2415	321.351	32.5233	3.235436
2418	321.837	32.3427	3.173769
2421	322.325	32.1733	3.111606
2424	322.826	32.0228	3.048747
2427	323.331	31.903	2.986187
2430	323.842	31.8136	2.924024
2433	324.343	31.7501	2.861860
2436	324.843	31.7167	2.798505
2439	325.333	31.7097	2.735051
2442	325.833	31.7413	2.672491
2445	326.329	31.815	2.610228
2448	326.827	31.938	2.548462
2451	327.327	32.1123	2.486398
2454	327.846	32.3437	2.425228
2457	328.366	32.634	2.366441
2460	328.88	32.98	2.308747
2463	329.387	33.3802	2.250854
2466	329.895	33.8378	2.194350
2469	330.398	34.3582	2.140330
2472	330.909	34.944	2.087700
2475	331.418	35.5916	2.035368
2478	331.941	36.2978	1.983731
2481	332.471	37.0648	1.933783
2484	333.004	37.8925	1.886615
2487	333.529	38.7666	1.842624
2490	334.055	39.5907	1.799826
2493	334.574	40.3411	1.758814
2496	335.097	41.1154	1.720882
2499	335.615	41.981	1.685630
2502	336.142	42.9472	1.652663
2505	336.675	43.9927	1.621780
2508	337.211	45.0801	1.592884
2511	337.743	46.1977	1.566372
2514	338.274	47.3551	1.542540
2517	338.792	48.5736	1.520993
2520	339.311	49.8127	1.500438
2523	339.823	51.0292	1.480083
2526	340.34	52.1901	1.461514
2529	340.856	53.2656	1.444634
2532	341.377	54.2341	1.429144
2535	341.904	55.0052	1.416435
2538	342.425	55.3461	1.405314
2541	342.936	55.1238	1.394790
2544	343.437	54.4968	1.385060
2547	343.943	53.7285	1.375031
2550	344.444	53.0243	1.364705
2553	344.947	52.4762	1.354975
2556	345.458	52.1045	1.346834
2559	345.966	51.9057	1.339487
2562	346.483	51.871	1.332835
2565	346.994	51.9825	1.326581
2568	347.491	52.2041	1.320723
2571	347.986	52.5077	1.315362
2574	348.49	52.874	1.309604
2577	348.993	53.3051	1.303648
2580	349.488	53.8035	1.297989
2583	349.995	54.3527	1.292529
2586	350.533	54.9372	1.287863
2589	351.084	55.7502	1.283893
2592	351.615	56.9919	1.279625
2595	352.132	58.5355	1.275555
2598	352.643	60.1262	1.272280
2601	353.151	61.6493	1.268706
2604	353.663	63.0483	1.264537
2607	354.167	64.2793	1.260467
2610	354.682	65.3309	1.256596
2613	355.192	66.2206	1.253221
2616	355.704	66.9787	1.249151
2619	356.199	67.6211	1.244486
2622	356.692	68.1612	1.240217
2625	357.183	68.6208	1.237438
2628	357.676	69.0235	1.234858
2631	358.171	69.3792	1.231285
2634	358.67	69.6939	1.227910
2637	359.176	69.984	1.224635
2640	359.691	70.2618	1.220962
2643	360.199	70.5402	1.217984
2646	360.695	70.8151	1.215305
2649	361.185	71.074	1.212327
2652	361.679	71.3179	1.208953
2655	362.174	71.5562	1.205876
2658	362.663	71.7916	1.203991
2661	363.156	72.0117	1.201708
2664	363.663	72.2167	1.198334
2667	364.17	72.4043	1.194661
2670	364.667	72.5696	1.191981
2673	365.154	72.7138	1.190096
2676	365.647	72.8439	1.187715
2679	366.137	72.9703	1.185233
2682	366.629	73.1002	1.182752
2685	367.12	73.2288	1.179676
2688	367.62	73.346	1.177095
2691	368.125	73.447	1.174614
2694	368.632	73.5328	1.171736
2697	369.129	73.6019	1.168957
2700	369.611	73.6555	1.166377
2703	370.096	73.6982	1.163300
2706	370.586	73.729	1.160521
2709	371.074	73.7503	1.158537
2712	371.561	73.7658	1.155758
2715	372.067	73.7794	1.152482
2718	372.571	73.782	1.149902
2721	373.07	73.7817	1.148315
2724	373.563	73.7704	1.146827
2727	374.054	73.7561	1.144445
2730	374.539	73.7395	1.141468
2733	375.027	73.7236	1.138292
2736	375.523	73.7063	1.135811
2739	376.005	73.6808	1.133727
2742	376.503	73.6461	1.131941
2745	377.006	73.6012	1.130254
2748	377.503	73.5554	1.130653
2751	377.996	73.5104	1.131549
2754	378.482	73.4684	1.129266
2757	378.968	73.4234	1.125296
2760	379.462	73.3773	1.122219
2763	379.947	73.3319	1.119539
2766	380.445	73.2831	1.116760
2769	380.939	73.2208	1.113882
2772	381.441	73.1452	1.110706
2775	381.935	73.0642	1.107728
2778	382.424	72.9841	1.105843
2781	382.902	72.9075	1.104951
2784	383.387	72.8355	1.103562
2787	383.871	72.7676	1.101776
2790	384.363	72.7033	1.100288
2793	384.859	72.6384	1.098304
2796	385.356	72.5704	1.096022
2799	385.856	72.4987	1.094236
2802	386.354	72.433	1.092748
2805	386.844	72.3664	1.091260
2808	387.328	72.2961	1.089474
2811	387.808	72.22	1.087688
2814	388.306	72.1333	1.085604
2817	388.791	72.0423	1.083421
2820	389.288	71.9453	1.081437
2823	389.783	71.8504	1.079552
2826	390.287	71.7665	1.077468
2829	390.778	71.6776	1.075285
2832	391.265	71.5965	1.073698
2835	391.747	71.5033	1.072309
2838	392.232	71.3925	1.071119
2841	392.716	71.2642	1.069829
2844	393.207	71.1273	1.068242
2847	393.709	70.995	1.066258
2850	394.201	70.8749	1.064273
2853	394.701	70.7578	1.062785
2856	395.186	70.6381	1.060801
2859	395.675	70.5218	1.058518
2862	396.158	70.4136	1.056534
2865	396.643	70.3093	1.054947
2868	397.129	70.1972	1.053657
2871	397.614	70.0781	1.052467
2874	398.113	69.9569	1.050979
2877	398.622	69.838	1.049193
2880	399.107	69.7203	1.047606
2883	399.596	69.5958	1.046218
2886	400.073	69.4662	1.044829
2889	400.563	69.34	1.043540
2892	401.047	69.2142	1.042250
2895	401.534	69.0878	1.040961
2898	402.026	68.9649	1.039771
2901	402.524	68.849	1.038581
2904	403.024	68.7368	1.037490
2907	403.524	68.6187	1.036201
2910	404.003	68.4946	1.034613
2913	404.493	68.3758	1.033126
2916	404.968	68.2596	1.032233
2919	405.461	68.1471	1.030745
2922	405.945	68.035	1.028662
2925	406.435	67.9285	1.026876
2928	406.934	67.824	1.025686
2931	407.434	67.7187	1.024595
2934	407.926	67.6137	1.023802
2937	408.414	67.5104	1.023208
2940	408.898	67.4184	1.022614
2943	409.388	67.3419	1.022218
2946	409.877	67.2801	1.021227
2949	410.36	67.2283	1.018944
2952	410.858	67.1698	1.016364
2955	411.363	67.0988	1.014578
2958	411.858	67.0175	1.013388
2961	412.346	66.9269	1.011900
2964	412.828	66.8302	1.010809
2967	413.313	66.7313	1.009421
2970	413.794	66.6351	1.007436
2973	414.28	66.5429	1.005948
2976	414.766	66.4541	1.005155
2979	415.259	66.3701	1.004263
2982	415.756	66.2889	1.003073
2985	416.26	66.2123	1.001784
2988	416.753	66.1385	1.000594
2991	417.232	66.0573	0.998808
2994	417.713	65.9577	0.996327
2997	418.197	65.8473	0.994740
3000	418.68	65.7388	0.994245
3003	419.17	65.6423	0.993948
3006	419.664	65.5522	0.993851
3009	420.165	65.4574	0.993257
3012	420.656	65.3651	0.991868
3015	421.145	65.2688	0.990479
3018	421.625	65.1691	0.989190
3021	422.109	65.0641	0.987404
3024	422.594	64.9673	0.985618
3027	423.081	64.8774	0.984825
3030	423.572	64.7796	0.984430
3033	424.065	64.6891	0.983140
3036	424.569	64.6045	0.981454
3039	425.063	64.5282	0.979767
3042	425.549	64.4526	0.977783
3045	426.034	64.3775	0.976493
3048	426.52	64.2952	0.976594
3051	427.001	64.2073	0.976497
3054	427.485	64.114	0.975406
3057	427.973	64.0185	0.974216
3060	428.473	63.9222	0.973125
3063	428.976	63.8217	0.972034
3066	429.469	63.7262	0.971539
3069	429.955	63.6355	0.970846
3072	430.439	63.5439	0.969457
3075	430.922	63.451	0.968168
3078	431.409	63.3437	0.966581
3081	431.889	63.219	0.965192
3084	432.378	63.0912	0.964002
3087	432.871	62.9743	0.963209
3090	433.373	62.8613	0.962516
3093	433.861	62.7369	0.961822
3096	434.345	62.6116	0.960831
3099	434.824	62.5007	0.959343
3102	435.305	62.4075	0.958053
3105	435.791	62.323	0.956764
3108	436.276	62.2353	0.955375
3111	436.758	62.1389	0.954086
3114	437.262	62.0344	0.952598
3117	437.757	61.9297	0.951706
3120	438.245	61.8275	0.951211
3123	438.726	61.7312	0.951014
3126	439.212	61.6386	0.950618
3129	439.685	61.5413	0.949627
3132	440.169	61.4446	0.947940
3135	440.651	61.3511	0.946154
3138	441.15	61.2585	0.945262
3141	441.642	61.1603	0.944966
3144	442.142	61.0642	0.943875
3147	442.628	60.9689	0.942487
3150	443.114	60.8804	0.940999
3153	443.593	60.7942	0.939411
3156	444.078	60.7015	0.937725
3159	444.559	60.6068	0.936336
3162	445.044	60.5033	0.935841
3165	445.539	60.4007	0.935942
3168	446.034	60.3076	0.935348
3171	446.532	60.2151	0.933463
3174	447.014	60.1223	0.931578
3177	447.495	60.0269	0.929891
3180	447.978	59.9316	0.928502
3183	448.454	59.83	0.927709
3186	448.936	59.716	0.927214
3189	449.428	59.5963	0.926223
3192	449.918	59.4838	0.925132
3195	450.417	59.3826	0.923644
3198	450.913	59.284	0.922355
3201	451.403	59.1774	0.921264
3203	451.702	59.0977	0.920272